[MS Spectrum]
# of Peaks	562
Raw Spectrum	[9.087],(scan:[3636])
Background	No Background Spectrum
Base Peak	m/z 53.55 (Inten : 47,428)
m/z	Absolute Intensity	Relative Intensity
51.65	1989	4.19
52.65	5154	10.87
53.55	47428	100.00
56.15	5650	11.91
56.60	47420	99.98
57.15	4555	9.60
58.05	3637	7.67
59.35	6877	14.50
60.40	6240	13.16
60.85	2112	4.45
61.75	8355	17.62
63.05	5330	11.24
63.65	2110	4.45
64.95	10070	21.23
65.95	2157	4.55
67.15	10258	21.63
68.05	2266	4.78
68.90	9100	19.19
69.65	2088	4.40
70.55	7736	16.31
71.85	4691	9.89
72.95	4863	10.25
73.65	1479	3.12
74.70	6431	13.56
76.45	6402	13.50
76.75	1437	3.03
77.90	3570	7.53
78.35	1257	2.65
79.25	5193	10.95
80.65	3542	7.47
81.80	3065	6.46
82.55	985	2.08
83.35	943	1.99
83.85	2941	6.20
84.70	1198	2.53
85.70	3357	7.08
86.05	900	1.90
86.80	1551	3.27
88.00	3737	7.88
89.40	2285	4.82
90.70	4687	9.88
91.75	1248	2.63
92.65	2071	4.37
93.55	1005	2.12
94.35	1623	3.42
95.10	792	1.67
95.90	1885	3.97
96.70	767	1.62
97.85	894	1.88
98.65	1435	3.03
99.50	909	1.92
100.25	451	0.95
101.10	2264	4.77
101.70	589	1.24
102.40	1204	2.54
103.20	970	2.05
103.85	746	1.57
105.00	613	1.29
105.50	510	1.08
106.05	592	1.25
106.65	574	1.21
107.50	1081	2.28
108.65	588	1.24
109.55	910	1.92
110.70	1383	2.92
111.55	438	0.92
112.15	4080	8.60
113.95	11	0.02
114.80	73	0.15
115.40	93	0.20
116.50	394	0.83
117.05	230	0.48
117.60	346	0.73
118.10	365	0.77
118.90	849	1.79
119.65	465	0.98
120.20	376	0.79
120.70	441	0.93
121.30	482	1.02
121.85	612	1.29
122.35	372	0.78
122.90	219	0.46
123.50	322	0.68
124.00	322	0.68
124.55	425	0.90
125.20	236	0.50
125.70	333	0.70
126.20	297	0.63
126.85	229	0.48
127.40	421	0.89
127.85	298	0.63
128.45	310	0.65
128.95	251	0.53
129.55	223	0.47
130.15	1445	3.05
131.15	321	0.68
131.70	322	0.68
132.25	98	0.21
132.85	195	0.41
133.35	416	0.88
133.95	204	0.43
134.60	1795	3.78
135.00	265	0.56
135.50	196	0.41
136.15	238	0.50
136.80	1018	2.15
137.20	253	0.53
137.90	1289	2.72
139.40	103	0.22
140.05	191	0.40
140.80	979	2.06
141.55	145	0.31
142.15	219	0.46
142.60	250	0.53
143.20	398	0.84
143.80	207	0.44
144.25	137	0.29
145.00	1170	2.47
145.75	36	0.08
146.75	402	0.85
147.70	224	0.47
148.20	162	0.34
148.70	169	0.36
149.25	89	0.19
149.80	184	0.39
150.40	114	0.24
150.90	106	0.22
151.40	100	0.21
152.05	138	0.29
152.55	198	0.42
153.00	69	0.15
154.20	124	0.26
154.65	108	0.23
155.85	85	0.18
156.45	195	0.41
157.25	156	0.33
158.05	109	0.23
158.60	174	0.37
159.10	82	0.17
159.85	14	0.03
160.70	38	0.08
161.25	201	0.42
161.80	95	0.20
162.40	98	0.21
163.40	169	0.36
164.00	45	0.09
164.65	79	0.17
165.65	47	0.10
166.80	133	0.28
167.65	31	0.07
168.45	106	0.22
169.45	94	0.20
170.10	75	0.16
170.75	785	1.66
171.75	9	0.02
172.55	2	0.00
173.35	60	0.13
173.80	180	0.38
176.60	58	0.12
177.70	115	0.24
178.20	73	0.15
178.85	107	0.23
179.95	58	0.12
180.50	65	0.14
180.90	109	0.23
181.50	73	0.15
182.65	98	0.21
183.15	41	0.09
183.65	202	0.43
184.35	155	0.33
184.85	95	0.20
185.25	32	0.07
186.25	26	0.05
187.40	107	0.23
188.35	7	0.01
189.20	101	0.21
189.65	34	0.07
190.20	204	0.43
191.30	279	0.59
191.85	76	0.16
193.10	61	0.13
193.95	16	0.03
194.65	2311	4.87
195.75	66	0.14
197.00	1865	3.93
198.05	5	0.01
199.05	74	0.16
199.45	83	0.18
200.70	34	0.07
201.10	105	0.22
202.15	37	0.08
203.50	98	0.21
203.80	87	0.18
205.85	44	0.09
206.85	32	0.07
207.85	30	0.06
208.85	408	0.86
209.85	6	0.01
211.05	413	0.87
211.85	26	0.05
212.65	3951	8.33
213.90	752	1.59
214.85	29	0.06
217.55	115	0.24
218.55	31	0.07
220.30	62	0.13
221.25	5	0.01
222.25	15	0.03
223.25	17	0.04
224.25	22	0.05
226.25	66	0.14
227.25	31	0.07
228.25	6	0.01
229.15	38	0.08
230.00	98	0.21
231.05	9	0.02
232.05	15	0.03
233.85	9	0.02
234.70	205	0.43
236.70	1123	2.37
237.75	53	0.11
238.85	86	0.18
239.70	2384	5.03
241.60	101	0.21
242.65	95	0.20
243.65	60	0.13
244.65	24	0.05
245.75	101	0.21
247.10	109	0.23
247.65	131	0.28
248.45	13	0.03
249.20	120	0.25
250.25	8	0.02
251.25	14	0.03
252.25	1	0.00
253.60	118	0.25
254.55	54	0.11
255.65	723	1.52
257.65	9	0.02
258.65	25	0.05
260.70	1529	3.22
261.75	16	0.03
262.75	11	0.02
263.75	9	0.02
264.75	13	0.03
265.75	16	0.03
267.75	43	0.09
269.10	2213	4.67
270.05	37	0.08
272.05	55	0.12
274.70	2625	5.53
277.05	1098	2.32
279.05	24	0.05
281.05	23	0.05
282.05	17	0.04
283.05	25	0.05
284.05	25	0.05
287.05	14	0.03
289.05	3	0.01
292.90	1304	2.75
293.85	5	0.01
298.85	12	0.03
300.85	1	0.00
302.85	43	0.09
304.90	419	0.88
306.70	862	1.82
307.65	779	1.64
308.20	1007	2.12
308.80	147	0.31
310.55	713	1.50
318.55	6	0.01
319.55	1	0.00
321.55	5	0.01
323.45	231	0.49
326.55	1	0.00
329.60	73	0.15
330.05	185	0.39
331.05	8	0.02
332.35	344	0.73
333.35	21	0.04
337.15	2226	4.69
338.25	36	0.08
339.90	110	0.23
340.95	1	0.00
344.80	138	0.29
346.95	14	0.03
347.95	3	0.01
348.95	3	0.01
351.85	37	0.08
352.70	1897	4.00
353.10	711	1.50
354.15	1	0.00
355.10	1964	4.14
356.15	10	0.02
359.15	24	0.05
361.15	13	0.03
362.50	24	0.05
363.10	1222	2.58
371.95	5	0.01
373.15	833	1.76
377.15	27	0.06
380.60	28	0.06
382.55	16	0.03
384.80	2427	5.12
386.00	2281	4.81
387.95	13	0.03
388.95	7	0.01
389.95	1	0.00
392.50	46	0.10
393.85	1773	3.74
394.60	399	0.84
395.90	593	1.25
396.85	27615	58.23
397.85	9051	19.08
398.90	29536	62.28
399.90	3845	8.11
401.00	1958	4.13
401.95	6	0.01
403.95	6	0.01
404.95	65	0.14
405.95	4	0.01
406.95	18	0.04
408.95	18	0.04
413.95	11	0.02
414.95	3	0.01
416.00	743	1.57
416.50	47	0.10
417.05	472	1.00
418.05	16	0.03
423.25	10373	21.87
424.10	778	1.64
425.10	2439	5.14
426.15	1	0.00
427.40	76	0.16
428.35	12	0.03
430.50	830	1.75
431.45	2	0.00
432.45	20	0.04
435.45	13	0.03
437.15	1792	3.78
437.80	452	0.95
439.30	1383	2.92
440.25	2	0.00
441.05	6883	14.51
442.20	341	0.72
443.10	3604	7.60
445.30	2001	4.22
447.00	1562	3.29
447.95	14	0.03
448.95	5	0.01
449.95	12	0.03
451.10	6082	12.82
451.95	4	0.01
452.85	1558	3.28
453.85	26	0.05
454.85	1689	3.56
455.85	26	0.05
457.85	4	0.01
458.85	15	0.03
460.85	4	0.01
463.75	12	0.03
464.70	1077	2.27
465.65	1	0.00
466.45	1	0.00
467.30	1484	3.13
469.00	608	1.28
470.05	1229	2.59
474.15	13	0.03
476.15	21	0.04
477.15	24	0.05
479.15	1	0.00
480.05	3	0.01
480.95	153	0.32
481.75	759	1.60
482.75	32	0.07
484.75	30	0.06
487.75	2	0.00
488.75	526	1.11
489.55	9	0.02
490.35	372	0.78
491.00	1652	3.48
491.95	4	0.01
492.85	895	1.89
494.20	869	1.83
494.75	884	1.86
495.20	44	0.09
495.90	1761	3.71
496.85	7016	14.79
498.00	6662	14.05
498.55	8545	18.02
499.00	9165	19.32
499.85	3551	7.49
500.70	46	0.10
501.05	29	0.06
502.05	12	0.03
504.10	2014	4.25
504.90	702	1.48
505.85	29	0.06
506.85	25	0.05
507.75	2259	4.76
509.75	5	0.01
510.75	10	0.02
512.75	22	0.05
513.75	11	0.02
515.75	1	0.00
517.00	534	1.13
518.95	2	0.00
521.95	18	0.04
523.30	5775	12.18
524.25	40	0.08
526.30	103	0.22
528.15	3	0.01
529.10	37	0.08
531.05	26	0.05
534.05	44	0.09
535.05	51	0.11
536.05	17	0.04
537.20	392	0.83
538.50	31	0.07
539.45	1	0.00
540.45	59	0.12
541.45	21	0.04
542.45	1	0.00
543.45	4	0.01
546.45	2	0.00
549.45	1	0.00
550.45	21	0.04
555.45	1	0.00
557.45	1	0.00
558.45	4	0.01
566.45	3	0.01
567.45	5	0.01
571.45	10	0.02
574.45	13	0.03
575.45	1	0.00
576.45	5	0.01
578.20	310	0.65
579.15	12	0.03
580.15	27	0.06
581.15	5	0.01
582.15	24	0.05
583.15	22	0.05
588.15	7	0.01
589.15	18	0.04
590.45	110	0.23
590.75	47	0.10
592.85	3198	6.74
593.35	2615	5.51
594.05	235	0.50
595.05	10	0.02
597.70	751	1.58
599.75	27	0.06
600.75	2	0.00
604.10	990	2.09
606.05	121	0.26
609.30	526	1.11
610.25	8	0.02
614.25	1	0.00
616.60	63	0.13
618.70	76	0.16
627.60	58	0.12
634.55	36	0.08
637.55	6	0.01
642.50	183	0.39
647.55	25	0.05
648.55	3	0.01
649.55	24	0.05
653.55	23	0.05
656.55	59	0.12
660.55	1	0.00
662.45	11	0.02
663.25	760	1.60
664.25	21	0.04
666.25	15	0.03
667.15	2238	4.72
670.15	26	0.05
672.15	751	1.58
673.35	895	1.89
674.75	1043	2.20
675.75	19	0.04
676.75	32	0.07
677.75	5	0.01
678.75	19	0.04
684.05	935	1.97
686.95	15	0.03
687.95	6516	13.74
688.45	1817	3.83
689.45	1115	2.35
689.95	441	0.93
690.95	1	0.00
691.95	59	0.12
693.45	1070	2.26
694.45	7	0.01
697.00	909	1.92
702.95	36	0.08
703.95	24	0.05
705.95	3	0.01
706.95	5	0.01
707.95	29	0.06
709.95	2	0.00
710.95	20	0.04
711.95	12	0.03
713.95	11	0.02
715.45	488	1.03
716.45	4	0.01
718.30	64	0.13
718.70	63	0.13
719.75	13	0.03
724.75	42	0.09
727.25	1637	3.45
728.25	4	0.01
729.25	23	0.05
730.25	26	0.05
731.30	726	1.53
731.80	152	0.32
734.00	64	0.13
735.95	4	0.01
736.95	13	0.03
737.95	16	0.03
738.95	14	0.03
739.95	8	0.02
740.95	27	0.06
742.20	91	0.19
742.95	149	0.31
743.85	30	0.06
744.75	3778	7.97
749.80	499	1.05
750.85	42	0.09
752.15	2308	4.87
752.95	866	1.83
753.75	1554	3.28
755.75	5	0.01
757.75	13	0.03
758.75	9	0.02
759.75	27	0.06
763.75	4	0.01
764.75	28	0.06
765.75	32	0.07
766.75	3	0.01
768.40	501	1.06
769.45	37	0.08
770.45	11	0.02
771.45	5	0.01
772.45	69	0.15
776.25	1087	2.29
777.25	13	0.03
778.25	419	0.88
781.25	8	0.02
784.25	32	0.07
786.25	25	0.05
787.25	6	0.01
788.25	15	0.03
789.25	3	0.01
790.25	28	0.06
793.25	1	0.00
794.15	549	1.16
795.15	19255	40.60
795.95	4511	9.51
796.85	35359	74.55
797.95	18099	38.16
798.90	33113	69.82
799.60	2980	6.28
Event	2
