[MS Spectrum]
# of Peaks	590
Raw Spectrum	[9.085],(scan:[3635])
Background	No Background Spectrum
Base Peak	m/z 399.80 (Inten : 15,897)
m/z	Absolute Intensity	Relative Intensity
53.10	106	0.67
53.60	66	0.42
54.75	47	0.30
56.75	50	0.31
58.65	218	1.37
59.30	1039	6.54
61.25	10	0.06
64.25	8	0.05
68.25	30	0.19
71.10	83	0.52
71.65	53	0.33
73.45	2	0.01
74.20	762	4.79
80.15	1534	9.65
81.15	17	0.11
82.15	10	0.06
84.15	70	0.44
85.15	75	0.47
86.10	189	1.19
87.10	5622	35.37
88.15	937	5.89
91.15	20	0.13
92.15	5	0.03
94.15	3	0.02
95.10	18	0.11
97.05	2	0.01
99.90	1957	12.31
101.25	3687	23.19
101.95	568	3.57
102.95	8	0.05
104.45	1952	12.28
105.25	6	0.04
106.10	1134	7.13
107.20	216	1.36
109.05	19	0.12
114.05	13	0.08
118.05	5	0.03
119.25	182	1.14
120.85	10142	63.80
121.75	10	0.06
122.75	77	0.48
124.05	146	0.92
126.05	213	1.34
127.30	181	1.14
127.95	761	4.79
128.35	816	5.13
128.80	376	2.37
129.85	747	4.70
130.50	266	1.67
132.05	279	1.76
133.05	28	0.18
136.35	187	1.18
139.65	129	0.81
141.50	90	0.57
142.45	83	0.52
143.45	20	0.13
145.05	948	5.96
145.65	873	5.49
146.75	2080	13.08
148.15	466	2.93
149.10	621	3.91
149.80	19	0.12
150.10	34	0.21
151.15	5	0.03
153.05	473	2.98
154.05	25	0.16
155.15	367	2.31
156.55	137	0.86
157.20	611	3.84
158.30	92	0.58
159.05	208	1.31
159.55	209	1.31
160.05	120	0.75
160.75	130	0.82
161.75	119	0.75
162.40	86	0.54
163.00	406	2.55
164.40	125	0.79
165.45	8	0.05
167.70	53	0.33
169.10	542	3.41
170.95	1111	6.99
171.55	1206	7.59
172.05	1488	9.36
173.20	88	0.55
174.05	1033	6.50
175.25	604	3.80
176.25	5	0.03
179.15	16	0.10
179.90	573	3.60
180.90	46	0.29
182.80	704	4.43
184.10	1540	9.69
185.20	114	0.72
186.15	9	0.06
189.15	8	0.05
190.15	43	0.27
191.40	306	1.92
191.90	630	3.96
192.95	53	0.33
194.20	1423	8.95
195.90	1661	10.45
197.85	329	2.07
198.60	1321	8.31
199.15	1468	9.23
200.70	246	1.55
202.20	499	3.14
203.25	600	3.77
203.70	106	0.67
204.75	10	0.06
207.75	4	0.03
208.75	1	0.01
209.95	981	6.17
211.25	59	0.37
212.75	273	1.72
213.75	914	5.75
215.20	904	5.69
215.70	100	0.63
217.10	852	5.36
219.05	10	0.06
220.85	817	5.14
221.95	286	1.80
224.95	276	1.74
226.10	79	0.50
226.55	98	0.62
228.55	4	0.03
231.55	17	0.11
233.55	26	0.16
235.55	11	0.07
236.95	50	0.31
237.75	227	1.43
238.20	69	0.43
238.65	145	0.91
239.45	11	0.07
240.25	213	1.34
242.25	8	0.05
244.25	2	0.01
245.60	91	0.57
248.70	626	3.94
249.20	143	0.90
250.25	156	0.98
251.40	180	1.13
253.35	4	0.03
254.45	236	1.48
255.75	600	3.77
256.75	27	0.17
257.75	37	0.23
258.80	87	0.55
261.15	527	3.32
262.15	21	0.13
263.95	1240	7.80
264.85	5	0.03
265.85	180	1.13
266.35	214	1.35
268.25	5	0.03
270.85	56	0.35
273.10	46	0.29
273.80	272	1.71
275.00	478	3.01
275.95	20	0.13
277.95	68	0.43
278.90	1436	9.03
279.95	875	5.50
282.05	1021	6.42
283.55	672	4.23
284.25	676	4.25
285.25	199	1.25
286.80	568	3.57
287.75	20	0.13
289.60	183	1.15
295.55	1	0.01
296.55	92	0.58
297.55	2	0.01
299.55	14	0.09
300.55	4	0.03
301.55	40	0.25
302.40	175	1.10
303.45	68	0.43
304.35	1	0.01
305.30	91	0.57
305.85	45	0.28
306.20	78	0.49
307.40	751	4.72
309.35	22	0.14
310.35	21	0.13
311.90	394	2.48
314.45	265	1.67
316.45	8	0.05
317.70	241	1.52
318.75	10	0.06
320.00	712	4.48
320.80	341	2.15
322.10	204	1.28
322.95	2	0.01
323.95	582	3.66
324.75	42	0.26
325.75	1	0.01
326.75	23	0.14
327.75	5	0.03
329.05	240	1.51
330.05	4	0.03
331.05	16	0.10
332.05	19	0.12
332.85	344	2.16
334.70	493	3.10
335.65	29	0.18
338.10	955	6.01
339.00	354	2.23
341.85	42	0.26
343.00	685	4.31
345.15	394	2.48
346.15	25	0.16
347.15	9	0.06
349.85	68	0.43
350.50	364	2.29
351.05	212	1.33
352.20	523	3.29
352.75	277	1.74
353.20	384	2.42
354.90	350	2.20
358.05	545	3.43
359.05	6	0.04
360.05	29	0.18
361.15	556	3.50
363.15	108	0.68
364.15	45	0.28
365.05	9	0.06
366.05	660	4.15
366.95	2	0.01
368.15	62	0.39
368.50	52	0.33
369.55	181	1.14
371.50	630	3.96
372.40	42	0.26
373.05	257	1.62
374.80	352	2.21
376.10	1088	6.84
377.05	403	2.54
378.30	1273	8.01
379.25	2	0.01
380.05	246	1.55
381.20	297	1.87
382.10	190	1.20
383.15	75	0.47
384.75	611	3.84
386.20	89	0.56
388.30	143	0.90
389.05	777	4.89
391.05	169	1.06
392.15	1021	6.42
393.65	2181	13.72
394.10	619	3.89
395.20	496	3.12
396.55	404	2.54
397.85	11578	72.83
398.75	3887	24.45
399.80	15897	100.00
400.95	6287	39.55
402.35	2739	17.23
403.00	251	1.58
404.10	168	1.06
405.45	417	2.62
406.30	408	2.57
407.90	496	3.12
408.75	678	4.26
409.85	9	0.06
411.25	592	3.72
412.25	47	0.30
413.25	22	0.14
414.15	1	0.01
415.05	586	3.69
416.70	417	2.62
418.05	1432	9.01
419.05	3	0.02
420.90	663	4.17
422.85	5	0.03
423.75	379	2.38
424.30	85	0.53
424.85	343	2.16
425.85	4	0.03
428.85	1	0.01
429.85	14	0.09
430.80	458	2.88
435.65	22	0.14
436.45	1155	7.27
437.65	988	6.22
438.65	410	2.58
440.05	783	4.93
442.25	446	2.81
443.40	132	0.83
444.35	1	0.01
445.35	8	0.05
447.40	287	1.81
447.90	1886	11.86
448.30	646	4.06
449.25	24	0.15
452.05	301	1.89
452.65	235	1.48
455.65	18	0.11
456.95	856	5.38
457.65	934	5.88
459.15	779	4.90
460.15	55	0.35
461.90	468	2.94
463.10	629	3.96
464.85	287	1.81
466.35	395	2.48
467.75	151	0.95
469.80	1037	6.52
471.10	339	2.13
471.95	67	0.42
474.95	14	0.09
476.60	632	3.98
477.50	326	2.05
477.95	124	0.78
479.10	177	1.11
480.25	842	5.30
480.65	101	0.64
482.00	616	3.87
483.45	577	3.63
484.45	34	0.21
485.45	23	0.14
488.95	442	2.78
491.15	951	5.98
493.15	16	0.10
494.15	3	0.02
496.40	280	1.76
497.45	22	0.14
498.45	13	0.08
499.45	2	0.01
500.45	48	0.30
501.25	11	0.07
502.10	681	4.28
503.25	109	0.69
504.30	1859	11.69
504.95	423	2.66
506.30	9694	60.98
507.25	8427	53.01
508.30	945	5.94
509.25	13	0.08
511.25	82	0.52
512.35	546	3.43
513.35	10	0.06
514.25	2	0.01
515.20	387	2.43
517.15	56	0.35
518.05	959	6.03
519.60	691	4.35
520.35	124	0.78
521.30	645	4.06
523.25	2	0.01
524.15	271	1.70
526.35	1002	6.30
527.60	2065	12.99
528.60	491	3.09
529.40	119	0.75
530.25	199	1.25
530.75	501	3.15
531.65	673	4.23
534.30	576	3.62
535.15	132	0.83
535.60	1188	7.47
536.35	718	4.52
538.00	483	3.04
538.95	35	0.22
540.25	836	5.26
542.25	3	0.02
544.30	252	1.59
545.35	2	0.01
546.35	2	0.01
547.45	983	6.18
548.40	435	2.74
549.10	1552	9.76
550.25	1580	9.94
551.45	3676	23.12
552.50	677	4.26
553.10	819	5.15
556.10	93	0.59
557.05	259	1.63
558.50	1089	6.85
559.45	7	0.04
560.45	14	0.09
561.45	85	0.53
563.45	15	0.09
565.80	234	1.47
566.50	367	2.31
568.00	198	1.25
569.30	1358	8.54
570.25	311	1.96
570.65	258	1.62
571.80	66	0.42
573.10	260	1.64
574.20	282	1.77
574.55	233	1.47
575.40	650	4.09
577.35	163	1.03
578.35	16	0.10
579.30	617	3.88
580.65	291	1.83
581.65	54	0.34
582.85	213	1.34
583.30	561	3.53
584.40	405	2.55
587.45	24	0.15
588.50	685	4.31
589.05	631	3.97
592.50	382	2.40
593.35	5	0.03
594.10	701	4.41
594.60	592	3.72
595.30	252	1.59
595.90	134	0.84
597.10	336	2.11
598.05	77	0.48
599.50	6838	43.01
601.25	139	0.87
602.40	239	1.50
603.45	12	0.08
604.35	43	0.27
605.20	56	0.35
605.65	80	0.50
606.90	564	3.55
608.50	710	4.47
609.00	55	0.35
610.15	374	2.35
610.90	305	1.92
611.60	383	2.41
613.40	157	0.99
613.85	707	4.45
614.55	1522	9.57
615.25	16	0.10
616.00	445	2.80
617.30	101	0.64
617.85	101	0.64
622.10	441	2.77
623.20	1592	10.01
624.20	831	5.23
625.05	8	0.05
626.80	764	4.81
628.35	717	4.51
629.25	46	0.29
631.20	392	2.47
632.25	1158	7.28
634.15	973	6.12
634.90	307	1.93
635.60	427	2.69
636.65	1	0.01
637.65	2	0.01
639.65	2	0.01
642.95	932	5.86
644.30	218	1.37
644.95	784	4.93
645.95	1	0.01
647.20	122	0.77
649.95	5	0.03
650.80	143	0.90
652.05	941	5.92
653.15	3	0.02
655.45	540	3.40
658.35	1987	12.50
659.45	2	0.01
660.45	45	0.28
661.50	457	2.87
662.35	639	4.02
663.35	10393	65.38
664.15	6325	39.79
665.40	1526	9.60
666.05	636	4.00
666.95	80	0.50
667.95	17	0.11
669.05	71	0.45
670.20	751	4.72
671.25	56	0.35
673.25	1	0.01
674.15	477	3.00
675.05	50	0.31
675.85	3321	20.89
676.65	134	0.84
677.40	1568	9.86
678.45	735	4.62
679.60	49	0.31
680.35	2417	15.20
681.05	1388	8.73
681.70	658	4.14
682.55	5	0.03
683.50	917	5.77
685.25	4	0.03
686.00	881	5.54
686.85	37	0.23
687.70	52	0.33
688.25	65	0.41
689.05	880	5.54
690.25	7435	46.77
691.30	8261	51.97
692.65	375	2.36
693.20	106	0.67
694.25	2448	15.40
695.05	102	0.64
696.00	883	5.55
696.40	243	1.53
698.30	1747	10.99
701.35	188	1.18
702.25	16	0.10
703.20	766	4.82
703.80	368	2.31
704.50	1702	10.71
705.45	5	0.03
707.45	1671	10.51
708.55	12389	77.93
709.45	9804	61.67
710.35	188	1.18
711.15	287	1.81
712.00	4482	28.19
713.05	2503	15.75
714.40	917	5.77
715.55	425	2.67
716.60	2707	17.03
717.40	176	1.11
718.40	894	5.62
719.35	1464	9.21
719.95	46	0.29
721.20	453	2.85
722.75	84	0.53
724.20	870	5.47
724.90	511	3.21
726.00	892	5.61
726.55	87	0.55
727.35	11	0.07
728.15	2059	12.95
730.25	132	0.83
731.15	4	0.03
732.00	436	2.74
732.40	613	3.86
733.20	300	1.89
734.25	342	2.15
735.20	1314	8.27
736.10	1178	7.41
738.35	1039	6.54
738.85	1394	8.77
739.55	1059	6.66
740.60	303	1.91
743.65	964	6.06
744.45	296	1.86
745.30	383	2.41
746.20	630	3.96
747.50	281	1.77
749.30	658	4.14
750.95	24	0.15
751.55	450	2.83
754.20	153	0.96
755.00	253	1.59
755.95	429	2.70
756.45	885	5.57
757.35	584	3.67
758.35	3236	20.36
759.55	1102	6.93
761.05	1003	6.31
762.30	1111	6.99
763.35	1231	7.74
764.05	52	0.33
764.45	114	0.72
765.35	1937	12.18
766.80	1835	11.54
768.25	2118	13.32
769.50	1173	7.38
770.40	386	2.43
771.00	383	2.41
772.30	1077	6.77
773.25	4	0.03
774.20	637	4.01
774.55	172	1.08
778.55	1	0.01
779.55	111	0.70
780.40	325	2.04
781.45	353	2.22
782.35	19	0.12
783.20	1354	8.52
784.40	123	0.77
785.55	88	0.55
786.60	45	0.28
787.80	27	0.17
789.80	39	0.25
790.30	1198	7.54
791.70	128	0.81
792.85	2	0.01
794.90	1151	7.24
795.85	40	0.25
796.95	241	1.52
798.35	795	5.00
799.95	148	0.93
Event	1
