[MS Spectrum]
# of Peaks	660
Raw Spectrum	[9.042],(scan:[3618])
Background	No Background Spectrum
Base Peak	m/z 352.85 (Inten : 99,993)
m/z	Absolute Intensity	Relative Intensity
51.65	1828	1.83
52.65	5199	5.20
53.55	6601	6.60
53.70	51533	51.54
56.00	23369	23.37
56.15	5712	5.71
57.80	20714	20.72
57.95	3769	3.77
59.45	7018	7.02
60.50	6465	6.47
61.60	6176	6.18
62.65	5309	5.31
63.25	2106	2.11
64.05	2144	2.14
64.85	10151	10.15
66.30	6273	6.27
66.75	2256	2.26
67.65	9040	9.04
68.95	5268	5.27
69.35	2055	2.06
70.25	7814	7.81
70.95	1774	1.77
71.80	6416	6.42
73.20	4419	4.42
74.30	4298	4.30
75.35	3807	3.81
75.75	1419	1.42
76.60	5479	5.48
77.55	1380	1.38
78.15	5591	5.59
79.75	4786	4.79
81.15	3454	3.45
81.65	1115	1.12
82.90	4093	4.09
83.45	1101	1.10
84.50	1283	1.28
85.40	2681	2.68
86.45	2269	2.27
87.45	2247	2.25
87.95	792	0.79
88.55	2416	2.42
89.30	930	0.93
90.15	780	0.78
91.00	6635	6.64
92.10	2572	2.57
93.00	984	0.98
94.50	3080	3.08
95.90	1759	1.76
96.85	1159	1.16
97.90	1504	1.50
98.45	481	0.48
99.50	1481	1.48
100.05	455	0.46
100.85	2050	2.05
101.90	594	0.59
102.95	520	0.52
104.00	45000	45.00
105.30	1071	1.07
106.65	665	0.67
107.25	604	0.60
108.25	618	0.62
109.25	566	0.57
109.90	612	0.61
110.70	1150	1.15
111.75	853	0.85
112.70	846	0.85
114.05	531	0.53
115.40	879	0.88
116.15	407	0.41
116.85	3655	3.66
117.90	1158	1.16
118.70	806	0.81
119.45	208	0.21
120.55	584	0.58
121.40	778	0.78
122.15	607	0.61
122.70	292	0.29
123.35	433	0.43
124.45	568	0.57
125.20	219	0.22
125.85	345	0.35
126.30	336	0.34
126.90	556	0.56
127.90	358	0.36
128.40	104	0.10
129.05	247	0.25
129.50	318	0.32
130.00	330	0.33
130.85	935	0.94
131.85	706	0.71
132.55	2163	2.16
133.05	3023	3.02
133.70	525	0.53
134.55	1401	1.40
135.30	272	0.27
135.80	171	0.17
136.35	230	0.23
136.95	353	0.35
137.55	152	0.15
137.95	158	0.16
138.85	693	0.69
139.60	251	0.25
140.00	77	0.08
140.95	1014	1.01
141.55	153	0.15
143.00	2117	2.12
144.35	367	0.37
144.85	775	0.78
145.90	176	0.18
146.35	144	0.14
147.00	138	0.14
147.40	32	0.03
147.95	66	0.07
148.55	177	0.18
149.05	144	0.14
149.50	103	0.10
150.10	222	0.22
150.55	131	0.13
151.20	68	0.07
151.65	154	0.15
152.15	229	0.23
152.70	47	0.05
153.30	240	0.24
153.75	150	0.15
154.30	158	0.16
154.85	122	0.12
155.85	105	0.11
156.40	243	0.24
156.90	31	0.03
157.45	103	0.10
158.00	66	0.07
158.60	124	0.12
159.00	65	0.07
159.60	104	0.10
160.05	165	0.17
160.65	204	0.20
161.05	139	0.14
161.65	130	0.13
162.25	265	0.27
162.75	53	0.05
163.35	130	0.13
163.75	106	0.11
164.30	59	0.06
165.00	60	0.06
165.45	156	0.16
165.85	116	0.12
166.50	99	0.10
167.25	12	0.01
168.05	128	0.13
168.50	160	0.16
169.65	219	0.22
170.65	2091	2.09
171.25	137	0.14
172.00	224	0.22
172.80	248	0.25
173.65	81	0.08
174.30	195	0.20
175.00	111	0.11
175.75	361	0.36
176.50	88	0.09
177.50	179	0.18
178.35	245	0.25
179.10	25	0.03
179.85	246	0.25
180.50	50	0.05
181.20	153	0.15
181.85	70	0.07
182.80	134	0.13
183.75	6	0.01
184.50	113	0.11
184.95	104	0.10
186.60	245	0.25
187.35	115	0.12
188.10	49	0.05
188.75	54	0.05
189.35	134	0.13
190.65	2380	2.38
191.40	1121	1.12
192.20	301	0.30
194.05	233	0.23
195.10	2628	2.63
195.95	8	0.01
196.80	74	0.07
197.80	51	0.05
198.35	54	0.05
199.85	71	0.07
200.95	74	0.07
201.85	12	0.01
202.70	260	0.26
203.50	74	0.07
204.45	51	0.05
205.10	41	0.04
205.60	43	0.04
205.95	69	0.07
207.20	60	0.06
208.15	79	0.08
208.80	37	0.04
209.10	27	0.03
210.35	93	0.09
211.50	606	0.61
212.90	1117	1.12
213.85	3	0.00
214.85	5	0.01
216.45	159	0.16
217.45	9	0.01
218.45	9	0.01
219.65	127	0.13
220.65	1	0.00
222.00	18	0.02
222.45	67	0.07
226.20	42	0.04
226.50	45	0.05
228.35	136	0.14
229.75	49	0.05
230.75	25	0.03
231.75	11	0.01
233.00	66	0.07
234.45	141	0.14
235.45	18	0.02
236.25	26	0.03
237.00	36	0.04
238.30	79	0.08
238.75	84	0.08
241.45	77	0.08
241.90	66	0.07
244.55	71	0.07
245.55	24	0.02
246.55	72	0.07
247.55	2	0.00
248.45	6	0.01
249.25	45	0.05
250.25	20	0.02
251.25	79	0.08
252.25	2	0.00
253.50	130	0.13
255.00	9480	9.48
255.95	33	0.03
256.95	2	0.00
259.95	45	0.05
260.95	6	0.01
262.50	113	0.11
263.10	1629	1.63
264.05	28	0.03
265.05	59	0.06
266.05	2	0.00
269.15	554	0.55
270.30	29	0.03
271.35	23	0.02
272.55	804	0.80
273.00	912	0.91
274.65	449	0.45
276.65	6	0.01
277.65	1	0.00
280.95	4845	4.85
281.85	18	0.02
282.85	622	0.62
283.85	38	0.04
284.85	15	0.02
286.85	12	0.01
289.85	36	0.04
290.85	1	0.00
291.85	22	0.02
293.10	6991	6.99
294.10	658	0.66
294.70	2393	2.39
295.40	144	0.14
295.90	1761	1.76
301.15	5404	5.40
302.25	15	0.02
304.25	2	0.00
305.25	11	0.01
306.25	6	0.01
307.20	1154	1.15
308.65	4569	4.57
309.90	429	0.43
311.10	3742	3.74
311.85	2298	2.30
312.70	1370	1.37
313.75	29	0.03
315.75	35	0.04
316.75	18	0.02
318.10	89	0.09
318.65	715	0.72
320.80	2378	2.38
321.35	3667	3.67
322.25	17	0.02
323.15	1144	1.14
324.15	52	0.05
325.05	5144	5.14
326.95	2358	2.36
328.45	1393	1.39
328.85	201	0.20
330.85	35	0.04
332.85	14	0.01
333.85	29	0.03
335.85	8	0.01
337.10	1459	1.46
337.70	2246	2.25
338.10	374	0.37
339.10	6337	6.34
339.65	294	0.29
340.45	223	0.22
341.10	2054	2.05
342.05	425	0.43
342.95	520	0.52
343.55	370	0.37
343.95	320	0.32
344.95	41	0.04
345.95	4	0.00
346.95	56	0.06
348.05	3918	3.92
349.05	122	0.12
349.95	3292	3.29
350.95	75	0.08
351.95	769	0.77
352.85	99993	100.00
353.65	25040	25.04
354.85	47587	47.59
355.80	7390	7.39
356.55	3948	3.95
357.90	2724	2.72
358.65	2075	2.08
359.65	7	0.01
360.65	48	0.05
361.65	76	0.08
362.65	20	0.02
363.65	44	0.04
364.65	35	0.04
365.65	29	0.03
366.65	9	0.01
367.65	30	0.03
369.30	2281	2.28
370.25	16	0.02
371.25	12	0.01
372.20	2266	2.27
373.15	8	0.01
374.15	7	0.01
375.15	15	0.02
378.55	616	0.62
379.15	3103	3.10
380.15	34	0.03
381.00	3577	3.58
382.25	636	0.64
383.25	2	0.00
384.25	71	0.07
385.25	10	0.01
386.25	4	0.00
387.25	11	0.01
388.25	19	0.02
389.25	15	0.02
390.25	11	0.01
391.25	16	0.02
392.25	16	0.02
393.25	40	0.04
395.50	4726	4.73
396.80	7498	7.50
398.00	2502	2.50
398.75	4363	4.36
399.15	921	0.92
401.15	24	0.02
402.20	135	0.14
402.50	168	0.17
403.55	47	0.05
404.55	15	0.02
405.55	4	0.00
407.05	1420	1.42
407.95	3015	3.02
408.35	2584	2.58
409.65	34230	34.23
410.55	11	0.01
411.40	3258	3.26
412.45	3	0.00
414.45	58	0.06
415.45	51	0.05
416.45	14	0.01
418.45	1	0.00
420.35	558	0.56
421.15	21338	21.34
422.15	243	0.24
423.05	31719	31.72
424.00	7943	7.94
425.35	927	0.93
426.05	2209	2.21
426.50	473	0.47
429.10	1222	1.22
430.05	14	0.01
432.40	89	0.09
433.40	2311	2.31
433.95	55	0.06
434.95	80	0.08
435.95	1	0.00
437.20	9477	9.48
438.10	42	0.04
439.15	2329	2.33
439.55	1641	1.64
440.35	539	0.54
441.15	30931	30.93
442.20	6904	6.90
443.15	12331	12.33
444.50	1781	1.78
447.15	1716	1.72
448.60	1869	1.87
449.05	1374	1.37
450.05	642	0.64
451.15	17175	17.18
452.85	45847	45.85
453.70	26621	26.62
454.80	21185	21.19
457.05	2457	2.46
458.05	17	0.02
459.05	4	0.00
460.05	19	0.02
461.15	467	0.47
464.15	4	0.00
465.35	120	0.12
466.25	10	0.01
467.10	160	0.16
468.25	87	0.09
468.95	2479	2.48
469.95	15	0.02
472.05	496	0.50
473.10	3162	3.16
474.05	327	0.33
474.55	56	0.06
475.55	33	0.03
476.45	1	0.00
477.30	1324	1.32
478.15	4	0.00
478.90	1298	1.30
479.95	2052	2.05
481.60	126	0.13
483.45	27	0.03
484.45	3	0.00
485.30	927	0.93
488.10	37	0.04
489.30	55	0.06
490.25	1	0.00
491.10	4766	4.77
492.25	6356	6.36
493.45	4293	4.29
494.00	1657	1.66
494.85	1	0.00
495.60	1828	1.83
496.65	9	0.01
497.65	28	0.03
498.55	614	0.61
499.00	836	0.84
499.85	186	0.19
500.85	24	0.02
501.85	7	0.01
502.85	7	0.01
503.85	5	0.01
505.05	521	0.52
506.25	205	0.21
509.15	3	0.00
510.00	71	0.07
511.40	360	0.36
513.35	605	0.61
514.35	15	0.02
515.40	71	0.07
517.40	394	0.39
518.80	1159	1.16
519.75	24	0.02
521.40	2411	2.41
522.35	34	0.03
524.35	14	0.01
525.25	4495	4.50
526.15	103	0.10
526.95	10648	10.65
527.95	1360	1.36
528.45	956	0.96
529.15	4738	4.74
530.05	18	0.02
530.95	2613	2.61
532.35	4352	4.35
533.25	5	0.01
534.05	177	0.18
535.05	10	0.01
539.05	11	0.01
541.05	28	0.03
542.05	4	0.00
546.05	1	0.00
547.05	2	0.00
548.05	42	0.04
549.05	17	0.02
550.70	1223	1.22
551.65	26	0.03
552.65	24	0.02
554.40	1729	1.73
555.10	1056	1.06
557.00	1528	1.53
557.95	25	0.03
559.95	17	0.02
562.95	6	0.01
563.95	3	0.00
566.25	2966	2.97
568.60	48	0.05
571.55	8	0.01
573.35	1591	1.59
574.25	12	0.01
575.15	2389	2.39
577.15	12	0.01
580.15	2	0.00
582.15	1	0.00
585.15	4	0.00
586.15	13	0.01
588.15	61	0.06
589.15	16	0.02
591.25	8365	8.37
591.95	3518	3.52
592.90	2810	2.81
595.95	38	0.04
598.05	2149	2.15
600.05	2	0.00
601.20	773	0.77
603.15	28	0.03
604.15	14	0.01
605.05	1157	1.16
605.85	33308	33.31
607.85	22	0.02
608.85	6	0.01
610.25	1823	1.82
612.25	4	0.00
614.25	18	0.02
617.25	17	0.02
618.20	57	0.06
620.15	1	0.00
621.30	74	0.07
622.25	8	0.01
624.25	5	0.01
625.25	6	0.01
626.60	300	0.30
627.85	1272	1.27
628.85	33	0.03
630.00	484	0.48
631.95	12	0.01
633.90	673	0.67
634.85	2	0.00
637.15	1301	1.30
639.15	29	0.03
640.15	6	0.01
641.40	1673	1.67
643.45	47	0.05
645.40	4301	4.30
646.25	12	0.01
648.25	13	0.01
649.25	37	0.04
651.25	17	0.02
653.25	21	0.02
654.15	146	0.15
657.15	10	0.01
658.45	1756	1.76
659.45	20	0.02
660.25	4	0.00
661.05	308	0.31
661.80	628	0.63
662.60	1806	1.81
663.15	2186	2.19
664.30	2014	2.01
666.25	2395	2.40
667.05	2	0.00
667.85	406	0.41
668.85	135	0.14
669.85	1	0.00
670.85	3	0.00
673.25	506	0.51
675.20	871	0.87
676.15	2	0.00
677.50	1338	1.34
679.45	31	0.03
685.45	9	0.01
686.65	740	0.74
688.05	58	0.06
688.75	22	0.02
689.60	2035	2.04
690.55	18	0.02
692.45	4	0.00
693.25	639	0.64
694.95	679	0.68
697.95	20	0.02
698.95	17	0.02
700.95	5	0.01
702.30	2464	2.46
703.05	1036	1.04
703.50	324	0.32
705.25	134	0.13
706.15	554	0.55
706.95	63360	63.36
708.00	25358	25.36
708.95	51625	51.63
710.05	15814	15.82
711.05	12969	12.97
711.80	1095	1.10
713.05	331	0.33
714.30	830	0.83
717.50	2107	2.11
718.45	45	0.05
720.45	32	0.03
721.45	37	0.04
724.20	81	0.08
728.05	43	0.04
728.90	16573	16.57
729.65	2042	2.04
730.95	20587	20.59
731.90	3371	3.37
732.90	1761	1.76
733.30	2897	2.90
734.40	663	0.66
735.80	187	0.19
736.75	11	0.01
737.55	831	0.83
738.55	27	0.03
739.55	12	0.01
740.95	376	0.38
742.15	3846	3.85
743.15	1	0.00
744.15	57	0.06
745.80	1025	1.03
746.75	10	0.01
747.75	9	0.01
749.10	1445	1.45
750.20	121	0.12
751.05	6195	6.20
751.70	5517	5.52
752.20	3435	3.44
752.90	7495	7.50
755.00	3644	3.64
755.50	2559	2.56
756.50	825	0.83
758.35	8	0.01
759.30	9504	9.50
760.30	4013	4.01
761.30	6842	6.84
761.95	1576	1.58
763.85	325	0.33
765.15	1112	1.11
766.15	1159	1.16
768.15	52	0.05
769.00	738	0.74
771.05	2	0.00
772.95	186	0.19
773.85	943	0.94
774.45	1041	1.04
777.45	17	0.02
778.35	17	0.02
779.15	250	0.25
780.40	202	0.20
783.30	1062	1.06
784.15	3	0.00
784.95	480	0.48
785.95	12	0.01
788.85	1	0.00
789.65	29	0.03
791.65	5	0.01
793.25	2921	2.92
794.15	10	0.01
796.15	7	0.01
797.30	1400	1.40
798.25	4	0.00
799.25	9	0.01
Event	2
