[MS Spectrum]
# of Peaks	695
Raw Spectrum	[8.637],(scan:[3456])
Background	No Background Spectrum
Base Peak	m/z 352.85 (Inten : 246,953)
m/z	Absolute Intensity	Relative Intensity
51.30	4326	1.75
52.25	4129	1.67
53.05	5787	2.34
53.50	43185	17.49
56.05	5519	2.23
56.50	45564	18.45
57.05	4439	1.80
57.95	3656	1.48
59.15	7190	2.91
60.15	6047	2.45
60.65	2324	0.94
61.50	9475	3.84
62.25	2102	0.85
63.15	8436	3.42
64.70	8501	3.44
66.05	6768	2.74
67.40	8313	3.37
68.70	5726	2.32
69.75	4825	1.95
70.80	4865	1.97
71.80	3759	1.52
72.45	1578	0.64
73.25	4764	1.93
74.70	6432	2.60
76.30	5361	2.17
77.05	1266	0.51
77.80	5071	2.05
79.10	3464	1.40
79.85	1227	0.50
80.95	4770	1.93
81.75	1011	0.41
82.55	1674	0.68
83.85	2576	1.04
85.15	3980	1.61
85.95	854	0.35
86.80	3437	1.39
87.80	1051	0.43
88.35	1305	0.53
88.95	735	0.30
89.70	2176	0.88
90.95	3093	1.25
92.05	1156	0.47
92.60	918	0.37
93.15	1039	0.42
93.70	755	0.31
94.20	862	0.35
94.75	934	0.38
95.60	1652	0.67
96.30	791	0.32
96.80	689	0.28
97.35	821	0.33
97.90	654	0.26
98.45	837	0.34
99.05	840	0.34
100.00	689	0.28
100.55	758	0.31
101.10	533	0.22
101.70	672	0.27
102.25	742	0.30
102.75	473	0.19
103.20	564	0.23
103.75	756	0.31
104.80	888	0.36
105.35	333	0.13
105.90	540	0.22
106.65	1024	0.41
107.25	378	0.15
108.00	1032	0.42
108.55	280	0.11
109.05	423	0.17
109.55	514	0.21
110.10	450	0.18
110.60	466	0.19
111.10	433	0.18
112.10	470	0.19
112.80	3300	1.34
113.80	408	0.17
114.30	368	0.15
115.30	751	0.30
115.90	380	0.15
116.75	2463	1.00
117.35	195	0.08
118.05	313	0.13
118.50	358	0.14
119.00	335	0.14
119.60	391	0.16
120.10	319	0.13
120.60	292	0.12
121.20	439	0.18
121.70	318	0.13
122.25	260	0.11
122.80	539	0.22
123.25	169	0.07
123.90	402	0.16
124.40	468	0.19
124.80	256	0.10
125.45	264	0.11
125.95	570	0.23
126.50	329	0.13
127.00	244	0.10
127.55	347	0.14
128.05	210	0.09
128.60	296	0.12
129.05	276	0.11
129.60	79	0.03
130.20	233	0.09
131.10	279	0.11
131.85	318	0.13
132.25	251	0.10
133.15	629	0.25
133.80	155	0.06
134.95	5131	2.08
136.05	208	0.08
136.65	1754	0.71
137.55	104	0.04
138.05	293	0.12
138.85	1229	0.50
139.65	143	0.06
140.80	4225	1.71
141.85	187	0.08
142.30	193	0.08
142.90	162	0.07
143.80	176	0.07
144.45	92	0.04
145.00	213	0.09
145.45	196	0.08
146.05	86	0.03
146.60	241	0.10
147.05	201	0.08
147.65	100	0.04
148.15	151	0.06
148.55	129	0.05
149.75	138	0.06
150.15	69	0.03
150.75	150	0.06
151.25	231	0.09
151.90	131	0.05
152.30	195	0.08
152.85	95	0.04
153.40	115	0.05
154.35	341	0.14
155.05	128	0.05
155.45	116	0.05
156.10	210	0.09
156.50	88	0.04
157.15	121	0.05
157.55	143	0.06
158.20	203	0.08
158.70	110	0.04
159.25	55	0.02
160.25	139	0.06
160.80	187	0.08
161.40	239	0.10
161.85	195	0.08
162.35	92	0.04
163.40	187	0.08
163.90	167	0.07
164.70	423	0.17
165.15	180	0.07
165.55	190	0.08
166.55	77	0.03
167.75	162	0.07
168.15	116	0.05
168.60	191	0.08
169.45	243	0.10
170.50	118	0.05
171.45	71	0.03
171.95	175	0.07
172.30	92	0.04
173.05	84	0.03
173.55	179	0.07
173.95	134	0.05
176.20	173	0.07
176.70	435	0.18
177.10	611	0.25
177.70	52	0.02
178.30	186	0.08
179.35	101	0.04
179.85	106	0.04
180.95	34	0.01
181.40	87	0.04
182.05	47	0.02
182.55	129	0.05
182.95	41	0.02
184.10	39	0.02
185.70	132	0.05
186.10	143	0.06
186.70	75	0.03
187.25	131	0.05
188.25	104	0.04
188.80	124	0.05
189.55	23	0.01
190.10	1129	0.46
191.15	943	0.38
191.90	78	0.03
193.00	1130	0.46
194.25	3096	1.25
194.85	7758	3.14
195.75	33	0.01
196.60	456	0.18
197.95	148	0.06
198.55	35	0.01
199.20	48	0.02
200.35	48	0.02
201.60	42	0.02
201.95	88	0.04
202.50	52	0.02
202.80	36	0.01
203.60	131	0.05
204.45	46	0.02
205.30	14	0.01
205.90	33	0.01
206.85	22	0.01
208.15	100	0.04
208.95	17	0.01
209.80	158	0.06
211.20	56	0.02
212.15	3	0.00
213.25	940	0.38
214.20	58	0.02
214.95	2009	0.81
215.55	37	0.01
215.90	37	0.01
217.20	224	0.09
218.65	46	0.02
220.65	19	0.01
221.80	67	0.03
222.75	13	0.01
224.75	24	0.01
225.75	8	0.00
226.75	13	0.01
228.10	47	0.02
229.15	24	0.01
231.15	59	0.02
232.15	30	0.01
233.15	6	0.00
234.15	5	0.00
235.15	65	0.03
236.15	37	0.01
237.10	1934	0.78
238.05	73	0.03
240.05	5	0.00
241.05	7	0.00
242.05	2	0.00
243.05	27	0.01
244.05	67	0.03
245.05	15	0.01
246.05	56	0.02
248.05	15	0.01
250.70	2953	1.20
251.65	3	0.00
252.65	24	0.01
253.65	4	0.00
254.65	8	0.00
255.65	15	0.01
256.65	12	0.00
257.65	58	0.02
259.55	28	0.01
260.40	69	0.03
260.80	57	0.02
261.85	34	0.01
262.85	20	0.01
263.85	6	0.00
264.85	2	0.00
265.85	33	0.01
267.05	2712	1.10
268.40	52	0.02
269.85	76	0.03
271.00	582	0.24
272.55	4177	1.69
273.80	870	0.35
274.40	276	0.11
275.35	8	0.00
276.25	2	0.00
277.15	25	0.01
277.60	52	0.02
278.75	59	0.02
283.30	892	0.36
284.15	9	0.00
284.95	23	0.01
285.95	4	0.00
287.95	1	0.00
289.65	1656	0.67
290.85	647	0.26
292.20	42	0.02
295.15	46	0.02
296.00	1798	0.73
297.20	1908	0.77
300.15	33	0.01
304.05	2049	0.83
305.10	32	0.01
305.70	75	0.03
306.30	633	0.26
307.35	25	0.01
308.80	3260	1.32
309.30	2476	1.00
309.85	3510	1.42
310.35	774	0.31
311.10	805	0.33
311.75	581	0.24
312.25	855	0.35
312.75	551	0.22
313.40	29	0.01
314.35	1679	0.68
316.35	45	0.02
319.25	98	0.04
320.25	6	0.00
321.30	1761	0.71
322.00	1026	0.42
323.00	746	0.30
323.85	51	0.02
324.65	1849	0.75
325.05	1917	0.78
325.90	3175	1.29
326.75	1915	0.78
327.90	2005	0.81
329.95	34	0.01
330.95	11	0.00
333.15	419	0.17
334.05	4	0.00
335.00	995	0.40
335.85	7	0.00
336.80	1406	0.57
337.75	15	0.01
339.05	1980	0.80
339.65	500	0.20
340.25	2947	1.19
340.75	3849	1.56
341.55	20	0.01
342.35	635	0.26
343.35	11	0.00
344.35	21	0.01
346.35	31	0.01
348.35	15	0.01
349.70	2197	0.89
350.05	2717	1.10
350.75	4118	1.67
351.80	1878	0.76
352.85	246953	100.00
353.90	64504	26.12
354.95	79570	32.22
355.85	8754	3.54
356.50	2881	1.17
357.55	19	0.01
358.55	40	0.02
359.55	38	0.02
361.10	449	0.18
362.05	17	0.01
363.10	1645	0.67
364.25	74	0.03
365.25	8	0.00
367.40	128	0.05
368.25	5	0.00
369.05	3323	1.35
370.05	19	0.01
370.95	2078	0.84
371.85	3	0.00
372.75	1940	0.79
374.80	79	0.03
375.85	11	0.00
377.85	21	0.01
378.85	10	0.00
380.60	120	0.05
381.10	2129	0.86
382.15	74	0.03
383.30	416	0.17
384.35	13	0.01
385.35	47	0.02
386.35	53	0.02
387.35	6	0.00
389.35	1	0.00
390.35	3	0.00
391.35	40	0.02
392.35	24	0.01
394.25	609	0.25
395.20	14738	5.97
396.35	5219	2.11
397.85	588	0.24
398.85	2	0.00
401.10	440	0.18
401.85	817	0.33
404.85	26	0.01
405.85	16	0.01
406.90	1798	0.73
407.75	8	0.00
408.65	310	0.13
410.80	2497	1.01
411.85	1290	0.52
413.25	926	0.37
415.25	8	0.00
417.25	13	0.01
419.25	3	0.00
421.15	6563	2.66
422.05	1148	0.46
423.15	9491	3.84
424.15	8616	3.49
425.25	3368	1.36
426.05	1695	0.69
428.10	1732	0.70
428.85	4505	1.82
430.85	9	0.00
431.85	27	0.01
433.25	1262	0.51
435.25	1126	0.46
436.25	13	0.01
437.45	6058	2.45
439.55	10	0.00
440.35	394	0.16
441.10	12248	4.96
442.05	3674	1.49
443.05	8184	3.31
445.25	2916	1.18
446.35	2412	0.98
448.70	5901	2.39
449.55	1	0.00
450.95	7836	3.17
451.95	2964	1.20
452.80	93212	37.74
454.00	24263	9.82
454.85	31743	12.85
455.80	4109	1.66
456.80	2603	1.05
458.75	2	0.00
465.05	725	0.29
465.50	44	0.02
469.20	38	0.02
470.30	5327	2.16
471.35	19	0.01
472.35	20	0.01
473.35	18	0.01
475.35	18	0.01
476.25	5	0.00
476.95	389	0.16
480.05	26	0.01
481.35	3027	1.23
482.50	796	0.32
483.55	5	0.00
485.55	1729	0.70
486.65	3	0.00
489.00	864	0.35
490.00	6809	2.76
491.45	1356	0.55
493.45	1217	0.49
494.45	7	0.00
495.45	10	0.00
496.45	9	0.00
497.80	181	0.07
499.75	20	0.01
500.75	10	0.00
502.75	2	0.00
503.75	9	0.00
504.80	3869	1.57
505.75	6	0.00
506.65	2045	0.83
507.65	12	0.00
509.35	1224	0.50
511.35	66	0.03
512.35	19	0.01
513.35	1603	0.65
514.15	6	0.00
514.95	1164	0.47
515.95	8	0.00
516.95	7	0.00
519.05	6759	2.74
521.05	46	0.02
521.95	361	0.15
522.95	41	0.02
523.95	5	0.00
524.95	38	0.02
526.30	90	0.04
527.25	12	0.00
528.90	748	0.30
530.00	5629	2.28
530.75	2541	1.03
531.80	1358	0.55
532.55	1595	0.65
532.90	898	0.36
533.85	3	0.00
535.00	2476	1.00
535.75	28	0.01
536.60	572	0.23
537.30	917	0.37
538.25	15	0.01
540.25	7	0.00
541.25	17	0.01
542.25	18	0.01
543.30	894	0.36
544.15	88	0.04
545.05	920	0.37
545.80	87	0.04
546.85	1	0.00
548.90	456	0.18
549.85	5	0.00
551.65	37	0.01
552.45	891	0.36
553.45	7	0.00
554.35	88	0.04
554.75	114	0.05
555.55	17	0.01
556.40	93	0.04
557.30	3415	1.38
558.35	1	0.00
559.35	7	0.00
560.35	17	0.01
562.20	74	0.03
563.25	74	0.03
564.25	31	0.01
565.40	456	0.18
566.35	5	0.00
568.35	11	0.00
569.35	20	0.01
570.35	2	0.00
571.35	25	0.01
572.60	722	0.29
573.05	1738	0.70
574.35	503	0.20
576.60	3818	1.55
578.00	866	0.35
580.05	1491	0.60
582.05	1	0.00
583.05	16	0.01
584.80	93	0.04
585.85	27	0.01
586.75	742	0.30
589.75	20	0.01
590.65	157	0.06
591.35	3627	1.47
592.10	2802	1.13
593.05	9	0.00
594.45	297	0.12
595.85	689	0.28
597.85	4	0.00
598.85	1	0.00
599.85	39	0.02
602.20	1062	0.43
603.15	11	0.00
604.55	1550	0.63
605.25	1389	0.56
605.95	6780	2.75
607.45	6315	2.56
608.35	5	0.00
609.95	2979	1.21
610.95	2	0.00
611.95	2	0.00
612.95	37	0.01
613.35	57	0.02
614.35	6	0.00
615.35	7	0.00
616.35	2	0.00
617.15	3	0.00
617.90	267	0.11
618.95	7	0.00
621.95	32	0.01
622.95	79	0.03
623.95	50	0.02
625.40	1200	0.49
626.35	6	0.00
627.25	8	0.00
628.15	2045	0.83
629.50	1439	0.58
631.45	18	0.01
632.45	43	0.02
634.00	101	0.04
635.95	27	0.01
636.95	6	0.00
637.95	2	0.00
638.95	12	0.00
640.30	2334	0.95
641.25	24	0.01
642.25	12	0.00
643.25	6	0.00
644.25	10	0.00
645.70	1823	0.74
646.65	45	0.02
648.95	1623	0.66
650.95	35	0.01
653.95	50	0.02
655.15	400	0.16
656.15	31	0.01
657.15	219	0.09
658.15	22	0.01
660.05	15	0.01
660.80	917	0.37
661.85	2049	0.83
662.50	2645	1.07
663.25	1	0.00
664.00	279	0.11
664.50	1257	0.51
665.35	6	0.00
666.15	3188	1.29
667.05	660	0.27
669.30	1493	0.60
673.25	38	0.02
674.55	2825	1.14
675.55	6	0.00
678.95	17	0.01
679.35	41	0.02
679.85	186	0.08
682.85	5	0.00
683.85	26	0.01
685.60	526	0.21
686.55	5	0.00
687.55	10	0.00
688.40	753	0.30
690.45	6	0.00
691.45	7	0.00
692.45	4	0.00
693.65	1069	0.43
694.65	2	0.00
695.65	7	0.00
697.65	7	0.00
699.25	3046	1.23
700.25	8	0.00
702.50	3706	1.50
703.35	5981	2.42
704.30	3464	1.40
705.25	7	0.00
706.15	3713	1.50
706.95	122118	49.45
707.95	43040	17.43
708.95	102004	41.31
709.90	22525	9.12
710.80	17896	7.25
712.00	8342	3.38
712.55	1085	0.44
713.10	1163	0.47
715.15	11	0.00
717.15	1	0.00
718.95	2218	0.90
720.60	123	0.05
721.65	22	0.01
722.80	947	0.38
724.85	2	0.00
725.85	95	0.04
728.00	510	0.21
728.70	3102	1.26
729.15	5935	2.40
730.00	3163	1.28
731.05	561	0.23
732.15	1196	0.48
732.60	508	0.21
733.65	9	0.00
734.65	32	0.01
735.65	5	0.00
736.65	5	0.00
737.65	39	0.02
738.65	10	0.00
739.65	5	0.00
740.65	37	0.01
741.55	10	0.00
742.45	621	0.25
743.45	9	0.00
744.80	1502	0.61
745.50	99	0.04
746.05	773	0.31
747.05	30	0.01
748.05	34	0.01
748.90	407	0.16
749.60	1999	0.81
752.35	321	0.13
753.45	476	0.19
754.45	7	0.00
755.35	24	0.01
756.10	1253	0.51
756.80	919	0.37
757.75	7	0.00
759.20	38812	15.72
760.20	32041	12.97
761.20	17810	7.21
762.20	15439	6.25
763.25	549	0.22
764.25	4812	1.95
765.15	10	0.00
766.15	2290	0.93
768.05	12	0.00
769.05	26	0.01
771.05	23	0.01
772.05	6	0.00
773.05	5	0.00
774.05	12	0.00
775.05	13	0.01
776.15	267	0.11
777.50	3041	1.23
778.55	9	0.00
780.10	1224	0.50
784.45	1194	0.48
785.05	592	0.24
786.05	15	0.01
786.90	3520	1.43
788.05	1620	0.66
793.05	10	0.00
794.85	279	0.11
795.85	23	0.01
797.25	2491	1.01
799.25	1	0.00
Event	2
