[MS Spectrum]
# of Peaks	577
Raw Spectrum	[6.342],(scan:[2538])
Background	No Background Spectrum
Base Peak	m/z 56.25 (Inten : 30,798)
m/z	Absolute Intensity	Relative Intensity
52.65	27	0.09
53.65	3216	10.44
54.65	5858	19.02
55.45	6815	22.13
56.25	30798	100.00
57.70	16002	51.96
58.75	16350	53.09
59.85	9025	29.30
60.85	7358	23.89
62.15	9535	30.96
62.45	2364	7.68
63.50	6076	19.73
64.15	2084	6.77
64.95	9733	31.60
66.60	8717	28.30
67.35	2251	7.31
68.20	9501	30.85
69.80	8455	27.45
71.15	6104	19.82
72.25	4989	16.20
72.95	1958	6.36
73.85	5006	16.25
74.90	4370	14.19
75.55	1538	4.99
76.45	4720	15.33
78.40	5911	19.19
78.75	1428	4.64
79.50	1686	5.47
80.55	5176	16.81
81.65	1769	5.74
82.75	4667	15.15
83.80	1342	4.36
84.65	1025	3.33
85.40	2012	6.53
86.00	1131	3.67
86.50	1175	3.82
87.05	1342	4.36
88.10	1095	3.56
88.90	2254	7.32
89.65	848	2.75
90.90	9864	32.03
91.95	1290	4.19
92.50	983	3.19
93.00	923	3.00
93.55	887	2.88
94.30	2314	7.51
95.10	803	2.61
95.65	905	2.94
96.20	936	3.04
96.75	1104	3.58
97.35	906	2.94
98.45	999	3.24
98.95	508	1.65
99.45	823	2.67
100.00	593	1.93
100.55	632	2.05
101.05	863	2.80
101.65	652	2.12
102.20	774	2.51
102.70	677	2.20
103.20	578	1.88
103.75	660	2.14
104.30	618	2.01
104.85	698	2.27
105.45	498	1.62
105.95	719	2.33
106.50	575	1.87
107.10	651	2.11
107.60	581	1.89
108.05	476	1.55
108.65	454	1.47
109.20	504	1.64
109.70	347	1.13
110.25	601	1.95
110.80	542	1.76
111.30	539	1.75
111.90	581	1.89
112.45	596	1.94
113.00	450	1.46
113.50	373	1.21
114.10	556	1.81
114.80	1082	3.51
115.75	355	1.15
116.15	340	1.10
116.70	789	2.56
117.30	348	1.13
117.95	1095	3.56
118.40	225	0.73
118.90	385	1.25
119.45	423	1.37
119.95	294	0.95
120.55	399	1.30
121.05	460	1.49
121.65	338	1.10
122.10	413	1.34
122.60	376	1.22
123.25	316	1.03
123.70	289	0.94
124.35	338	1.10
124.80	420	1.36
125.35	189	0.61
125.85	247	0.80
126.45	322	1.05
127.05	178	0.58
127.55	314	1.02
128.05	142	0.46
128.60	108	0.35
129.15	263	0.85
129.65	299	0.97
130.70	2236	7.26
131.25	287	0.93
131.85	190	0.62
132.40	169	0.55
132.90	245	0.80
133.50	302	0.98
134.00	327	1.06
134.55	222	0.72
135.00	236	0.77
135.60	165	0.54
136.20	89	0.29
136.65	173	0.56
137.20	240	0.78
137.75	184	0.60
138.35	285	0.93
138.85	237	0.77
139.30	255	0.83
139.95	207	0.67
140.45	107	0.35
141.05	3271	10.62
142.10	111	0.36
143.20	127	0.41
143.70	195	0.63
144.20	227	0.74
144.85	180	0.58
145.75	234	0.76
146.45	101	0.33
146.90	117	0.38
147.50	487	1.58
147.95	222	0.72
149.15	112	0.36
149.60	227	0.74
150.15	152	0.49
150.70	101	0.33
151.70	719	2.33
152.90	96	0.31
153.45	264	0.86
154.00	61	0.20
154.50	91	0.30
155.05	181	0.59
155.60	258	0.84
156.55	87	0.28
157.45	22	0.07
158.30	129	0.42
158.90	160	0.52
159.35	139	0.45
159.95	81	0.26
160.45	179	0.58
161.00	165	0.54
161.50	71	0.23
162.15	171	0.56
162.55	127	0.41
163.55	36	0.12
164.80	151	0.49
165.25	65	0.21
166.40	93	0.30
166.90	201	0.65
168.05	146	0.47
168.55	290	0.94
169.10	123	0.40
169.60	152	0.49
170.20	64	0.21
171.30	121	0.39
171.80	78	0.25
172.75	46	0.15
174.00	74	0.24
174.45	144	0.47
175.10	166	0.54
175.55	184	0.60
176.10	164	0.53
177.20	128	0.42
178.05	17	0.06
178.85	161	0.52
179.75	37	0.12
180.60	9594	31.15
181.50	164	0.53
182.35	18	0.06
183.10	155	0.50
183.95	31	0.10
184.75	356	1.16
185.75	107	0.35
187.20	4439	14.41
188.15	40	0.13
189.60	83	0.27
190.10	231	0.75
191.20	88	0.29
191.75	188	0.61
192.30	57	0.19
192.80	61	0.20
193.50	133	0.43
193.90	168	0.55
194.50	162	0.53
195.00	126	0.41
196.05	25	0.08
197.05	17	0.06
198.05	21	0.07
199.05	17	0.06
199.95	165	0.54
200.45	72	0.23
200.95	50	0.16
201.40	67	0.22
202.35	24	0.08
203.65	155	0.50
204.10	354	1.15
205.05	8	0.03
205.95	2	0.01
206.85	89	0.29
207.40	204	0.66
207.95	241	0.78
208.55	144	0.47
209.55	3	0.01
210.35	10	0.03
211.20	176	0.57
212.15	52	0.17
213.15	53	0.17
214.05	21	0.07
214.95	104	0.34
215.75	7	0.02
216.50	71	0.23
217.35	51	0.17
218.15	81	0.26
218.65	90	0.29
220.65	3	0.01
222.50	109	0.35
223.60	102	0.33
224.55	37	0.12
227.75	173	0.56
228.65	15	0.05
229.50	166	0.54
230.10	106	0.34
233.05	7	0.02
234.60	72	0.23
235.75	90	0.29
236.65	12	0.04
237.40	230	0.75
238.40	148	0.48
239.35	32	0.10
240.35	9	0.03
241.35	6	0.02
243.35	8	0.03
244.60	52	0.17
245.70	46	0.15
246.40	78	0.25
247.25	2	0.01
248.00	51	0.17
249.50	43	0.14
251.65	76	0.25
253.65	2	0.01
254.65	7	0.02
255.60	130	0.42
256.55	17	0.06
259.55	113	0.37
263.55	42	0.14
266.85	147	0.48
268.30	45	0.15
268.85	92	0.30
270.00	54	0.18
270.30	37	0.12
271.05	64	0.21
272.05	27	0.09
272.65	75	0.24
274.65	9	0.03
276.65	10	0.03
278.65	28	0.09
280.75	163	0.53
281.75	20	0.06
283.55	97	0.31
285.15	40	0.13
286.15	32	0.10
287.55	108	0.35
288.55	30	0.10
289.55	7	0.02
290.90	1779	5.78
292.85	34	0.11
293.85	29	0.09
295.60	42	0.14
295.90	36	0.12
296.85	79	0.26
298.75	11	0.04
301.90	40	0.13
303.95	11	0.04
304.95	13	0.04
308.95	17	0.06
309.95	21	0.07
311.95	1	0.00
312.95	7	0.02
313.95	5	0.02
315.40	697	2.26
316.35	11	0.04
318.35	8	0.03
319.60	64	0.21
321.55	11	0.04
326.55	18	0.06
327.55	6	0.02
328.80	19572	63.55
329.75	11031	35.82
331.05	832	2.70
332.05	3488	11.33
333.05	34	0.11
335.05	4	0.01
336.05	16	0.05
337.05	1	0.00
338.05	12	0.04
338.85	15	0.05
339.65	117	0.38
343.00	170	0.55
343.45	93	0.30
344.45	48	0.16
345.45	10	0.03
346.35	12	0.04
347.20	139	0.45
349.25	1121	3.64
350.25	6	0.02
351.60	99	0.32
352.55	1	0.00
354.55	17	0.06
355.65	156	0.51
356.65	4	0.01
357.65	80	0.26
361.65	1	0.00
362.65	5	0.02
363.65	11	0.04
365.80	1050	3.41
366.35	897	2.91
367.35	12	0.04
368.30	46	0.15
369.15	7	0.02
370.20	114	0.37
371.05	3	0.01
372.05	26	0.08
373.05	31	0.10
374.05	3	0.01
376.05	7	0.02
377.05	133	0.43
380.45	68	0.22
382.40	117	0.38
383.35	23	0.07
386.35	3	0.01
387.90	29	0.09
389.10	710	2.31
390.55	38	0.12
391.00	54	0.18
392.80	3105	10.08
395.75	1	0.00
396.75	3	0.01
397.75	3	0.01
400.75	1	0.00
401.75	2	0.01
404.75	3	0.01
408.75	2	0.01
410.85	48	0.16
413.75	14	0.05
414.65	2188	7.10
415.10	545	1.77
416.15	1010	3.28
419.60	28	0.09
421.45	95	0.31
424.45	2	0.01
427.50	3160	10.26
428.70	2543	8.26
430.65	26	0.08
431.65	3	0.01
433.00	227	0.74
434.95	5	0.02
437.95	23	0.07
438.95	7	0.02
441.40	2856	9.27
442.35	5	0.02
443.15	849	2.76
445.15	12	0.04
446.80	924	3.00
448.85	4	0.01
449.85	11	0.04
452.85	8	0.03
454.85	14	0.05
456.15	2544	8.26
456.90	2535	8.23
457.90	1170	3.80
458.85	1	0.00
459.85	13	0.04
462.85	60	0.19
463.90	17468	56.72
464.95	19	0.06
465.95	40	0.13
466.95	18	0.06
467.95	2	0.01
470.95	33	0.11
472.75	16	0.05
473.60	80	0.26
474.05	97	0.31
475.05	25	0.08
478.75	118	0.38
479.75	6	0.02
480.75	2	0.01
482.75	33	0.11
483.75	18	0.06
485.75	29	0.09
487.75	19	0.06
488.75	28	0.09
491.75	2	0.01
493.40	117	0.38
494.35	26	0.08
495.35	8	0.03
497.35	3	0.01
498.35	38	0.12
499.35	75	0.24
501.50	83	0.27
502.55	10	0.03
503.55	95	0.31
506.55	44	0.14
507.55	36	0.12
510.55	110	0.36
511.55	4	0.01
513.55	7	0.02
515.35	4	0.01
516.10	123	0.40
517.15	40	0.13
518.15	40	0.13
520.55	2878	9.34
522.45	175	0.57
523.70	51	0.17
524.65	55	0.18
526.65	4	0.01
527.65	1	0.00
528.65	13	0.04
530.65	11	0.04
531.65	21	0.07
532.90	50	0.16
533.85	22	0.07
534.85	3	0.01
536.85	3	0.01
539.45	66	0.21
540.45	54	0.18
541.45	52	0.17
542.45	9	0.03
543.65	777	2.52
545.65	15	0.05
551.65	19	0.06
554.65	39	0.13
555.65	56	0.18
558.65	7	0.02
562.65	25	0.08
563.65	2	0.01
565.65	3	0.01
568.65	1	0.00
571.70	43	0.14
572.65	2	0.01
575.15	102	0.33
578.20	42	0.14
579.15	5	0.02
581.15	4	0.01
583.10	23	0.07
586.90	1301	4.22
587.55	67	0.22
590.55	53	0.17
592.55	41	0.13
592.95	47	0.15
597.95	17	0.06
598.95	1	0.00
603.95	7	0.02
605.95	5	0.02
608.95	4	0.01
610.95	49	0.16
611.95	8	0.03
612.95	50	0.16
613.95	41	0.13
619.95	11	0.04
624.95	49	0.16
625.95	32	0.10
626.95	20	0.06
627.95	12	0.04
628.95	17	0.06
630.95	2	0.01
632.00	51	0.17
633.95	8	0.03
636.20	146	0.47
637.25	8	0.03
638.25	2	0.01
639.25	15	0.05
641.25	25	0.08
642.25	6	0.02
643.25	109	0.35
645.25	3	0.01
646.25	28	0.09
647.25	4	0.01
648.25	25	0.08
649.25	6	0.02
650.20	260	0.84
651.15	8	0.03
653.15	2	0.01
654.60	152	0.49
655.05	92	0.30
656.05	13	0.04
657.05	1	0.00
659.05	1	0.00
660.05	42	0.14
662.05	12	0.04
663.05	7	0.02
664.05	6	0.02
668.05	27	0.09
669.05	52	0.17
670.05	2	0.01
672.05	7	0.02
674.00	52	0.17
676.05	49	0.16
677.05	1	0.00
678.05	5	0.02
680.05	59	0.19
681.05	37	0.12
682.10	599	1.94
682.65	6242	20.27
684.10	1239	4.02
686.15	29	0.09
687.15	6	0.02
688.15	68	0.22
689.95	8	0.03
690.75	374	1.21
691.75	55	0.18
692.75	6	0.02
693.75	12	0.04
694.75	4	0.01
695.75	27	0.09
696.75	29	0.09
700.15	2020	6.56
705.15	3	0.01
706.15	1	0.00
711.15	8	0.03
713.35	1344	4.36
714.75	556	1.81
715.25	1335	4.33
716.25	4	0.01
720.25	4	0.01
721.25	17	0.06
723.55	56	0.18
724.85	76	0.25
729.60	42	0.14
732.55	16	0.05
735.55	4	0.01
743.55	9	0.03
747.55	3	0.01
750.50	82	0.27
751.50	4344	14.10
755.60	83	0.27
757.55	11	0.04
759.55	14	0.05
760.65	92	0.30
763.65	4	0.01
766.65	37	0.12
769.65	2	0.01
770.65	13	0.04
773.65	21	0.07
776.65	1	0.00
777.65	61	0.20
778.65	8	0.03
779.65	56	0.18
781.65	41	0.13
783.40	75	0.24
785.35	10	0.03
786.60	132	0.43
787.65	4	0.01
788.65	2	0.01
790.65	21	0.07
793.75	173	0.56
795.75	13	0.04
796.75	1	0.00
797.75	8	0.03
798.75	9	0.03
799.70	49	0.16
Event	2
