[MS Spectrum]
# of Peaks	594
Raw Spectrum	[6.847],(scan:[2740])
Background	No Background Spectrum
Base Peak	m/z 56.40 (Inten : 47,497)
m/z	Absolute Intensity	Relative Intensity
54.65	2771	5.83
55.65	5387	11.34
56.40	47497	100.00
58.35	15111	31.81
59.45	15049	31.68
60.60	10766	22.67
61.60	7011	14.76
62.70	6945	14.62
63.85	6748	14.21
64.35	2120	4.46
65.25	8434	17.76
66.05	2059	4.34
66.90	9261	19.50
67.85	2148	4.52
68.95	9711	20.45
70.40	5944	12.51
71.50	5960	12.55
72.60	5484	11.55
73.70	5124	10.79
74.55	2906	6.12
75.70	6107	12.86
76.35	1494	3.15
77.25	5983	12.60
78.05	1342	2.83
79.10	4804	10.11
79.85	1245	2.62
81.25	31518	66.36
82.05	2732	5.75
83.05	1123	2.36
84.65	2984	6.28
85.45	963	2.03
86.15	3447	7.26
87.25	974	2.05
87.65	3830	8.06
88.95	841	1.77
89.55	3257	6.86
90.90	12561	26.45
92.20	2788	5.87
93.05	779	1.64
93.95	749	1.58
94.85	725	1.53
95.70	1273	2.68
96.85	2613	5.50
97.65	627	1.32
98.45	1132	2.38
99.75	1889	3.98
100.65	860	1.81
101.65	814	1.71
102.30	929	1.96
103.05	1316	2.77
103.85	707	1.49
104.60	1034	2.18
105.55	1109	2.33
106.50	1172	2.47
107.65	1354	2.85
108.85	1307	2.75
109.90	597	1.26
110.50	645	1.36
111.75	1008	2.12
112.90	1306	2.75
113.70	482	1.01
114.25	483	1.02
114.85	428	0.90
115.55	716	1.51
116.80	4758	10.02
117.20	1696	3.57
118.00	1064	2.24
119.05	407	0.86
119.65	404	0.85
120.25	369	0.78
121.05	734	1.55
122.40	356	0.75
122.95	216	0.45
123.75	741	1.56
124.65	305	0.64
125.70	344	0.72
126.60	585	1.23
127.85	1390	2.93
128.55	696	1.47
129.45	596	1.25
130.05	381	0.80
131.15	405	0.85
131.70	305	0.64
132.45	82	0.17
133.25	277	0.58
134.40	355	0.75
135.15	2448	5.15
136.10	287	0.60
137.45	511	1.08
138.10	257	0.54
138.75	356	0.75
139.25	255	0.54
140.05	250	0.53
140.85	3064	6.45
142.00	310	0.65
143.05	909	1.91
144.30	435	0.92
144.85	881	1.85
145.90	81	0.17
146.65	131	0.28
147.85	321	0.68
149.05	380	0.80
149.70	257	0.54
150.75	377	0.79
151.65	24	0.05
152.30	370	0.78
152.80	138	0.29
153.75	396	0.83
155.05	2245	4.73
156.95	173	0.36
157.45	92	0.19
158.15	332	0.70
158.65	159	0.33
159.60	86	0.18
160.35	589	1.24
161.35	146	0.31
161.80	127	0.27
162.90	200	0.42
164.00	109	0.23
164.60	208	0.44
165.65	203	0.43
166.10	74	0.16
166.70	58	0.12
167.45	296	0.62
168.25	12	0.03
169.15	281	0.59
169.95	150	0.32
170.45	245	0.52
171.40	52	0.11
172.10	119	0.25
173.20	270	0.57
174.30	19	0.04
174.90	133	0.28
175.70	54	0.11
176.55	350	0.74
177.50	90	0.19
177.90	29	0.06
178.40	81	0.17
179.00	44	0.09
179.60	252	0.53
180.35	16	0.03
181.05	191	0.40
181.85	88	0.19
182.60	718	1.51
183.65	4	0.01
185.10	52	0.11
185.55	139	0.29
186.35	122	0.26
187.15	214	0.45
188.45	260	0.55
190.00	125	0.26
191.00	2349	4.95
192.60	74	0.16
193.20	73	0.15
194.10	354	0.75
195.55	1061	2.23
196.50	870	1.83
197.40	85	0.18
199.05	192	0.40
199.90	45	0.09
200.40	157	0.33
200.85	71	0.15
201.95	253	0.53
202.85	5	0.01
203.65	215	0.45
205.15	189	0.40
205.85	27	0.06
206.80	38	0.08
207.80	170	0.36
208.50	1228	2.59
209.25	89	0.19
210.00	961	2.02
210.95	96	0.20
211.95	184	0.39
212.75	22	0.05
213.50	707	1.49
214.15	123	0.26
214.80	91	0.19
215.30	19	0.04
216.75	5706	12.01
218.65	3183	6.70
220.10	71	0.15
220.70	639	1.35
221.55	82	0.17
222.85	719	1.51
224.45	116	0.24
225.30	24	0.05
226.00	120	0.25
226.95	52	0.11
227.75	5	0.01
228.60	478	1.01
229.95	46	0.10
230.95	1	0.00
233.35	44	0.09
234.35	28	0.06
235.25	1	0.00
236.25	137	0.29
237.05	3	0.01
238.15	121	0.25
239.80	68	0.14
242.70	106	0.22
245.30	65	0.14
247.10	113	0.24
248.05	31	0.07
249.05	6	0.01
250.05	16	0.03
251.60	144	0.30
252.55	27	0.06
253.90	1432	3.01
254.50	241	0.51
255.60	35	0.07
257.45	73	0.15
257.90	90	0.19
259.85	479	1.01
263.45	121	0.25
264.25	5	0.01
265.05	52	0.11
266.75	84	0.18
268.05	21	0.04
269.60	22	0.05
270.40	26	0.05
270.95	970	2.04
272.75	1895	3.99
274.30	67	0.14
275.10	36	0.08
275.40	29	0.06
276.20	86	0.18
276.75	449	0.95
278.50	4066	8.56
282.55	7	0.01
283.55	2	0.00
284.55	1	0.00
285.85	69	0.15
287.20	1654	3.48
288.60	113	0.24
290.45	383	0.81
291.95	45	0.09
292.55	316	0.67
293.00	38	0.08
293.50	23	0.05
295.55	16	0.03
296.55	3	0.01
299.55	3	0.01
300.55	3	0.01
302.25	30	0.06
303.90	64	0.13
304.90	3018	6.35
306.80	1536	3.23
307.30	1052	2.21
308.25	36	0.08
309.25	27	0.06
310.15	56	0.12
310.90	3522	7.42
313.10	812	1.71
314.25	65	0.14
314.80	227	0.48
315.90	589	1.24
317.55	51	0.11
318.55	9	0.02
320.55	8	0.02
321.55	14	0.03
323.45	104	0.22
324.70	185	0.39
326.65	16	0.03
329.65	34	0.07
330.85	810	1.71
332.30	2021	4.26
335.85	100	0.21
339.85	50	0.11
341.50	100	0.21
343.20	626	1.32
344.55	2177	4.58
345.70	654	1.38
347.55	102	0.21
348.80	13	0.03
349.75	19	0.04
353.75	48	0.10
354.70	66	0.14
355.05	80	0.17
356.50	1716	3.61
357.00	2503	5.27
358.00	883	1.86
359.40	182	0.38
360.90	409	0.86
362.30	80	0.17
363.35	12	0.03
364.35	8	0.02
365.70	485	1.02
367.65	18	0.04
368.45	30	0.06
369.20	2267	4.77
369.95	114	0.24
370.35	1020	2.15
371.75	3055	6.43
372.25	1210	2.55
373.45	282	0.59
375.45	1	0.00
376.70	1082	2.28
377.90	973	2.05
378.85	51	0.11
379.85	16	0.03
381.85	81	0.17
382.80	1410	2.97
383.75	24	0.05
387.25	163	0.34
387.95	78	0.16
390.05	64	0.13
391.05	30	0.06
392.05	8	0.02
393.05	5	0.01
397.35	993	2.09
397.85	122	0.26
399.35	289	0.61
400.00	68	0.14
400.90	498	1.05
402.00	1515	3.19
402.70	53	0.11
404.65	3	0.01
405.95	69	0.15
406.90	2838	5.98
407.50	46	0.10
409.10	1357	2.86
410.05	4	0.01
413.55	81	0.17
414.55	28	0.06
415.95	1031	2.17
417.95	2066	4.35
419.30	1357	2.86
420.10	1940	4.08
420.95	679	1.43
421.95	1	0.00
423.35	45	0.09
425.20	5091	10.72
426.50	2561	5.39
427.45	2	0.00
428.30	141	0.30
430.25	11	0.02
431.05	4762	10.03
432.95	12	0.03
433.70	1102	2.32
435.15	1580	3.33
436.15	46	0.10
437.00	1370	2.88
440.05	9	0.02
442.05	44	0.09
443.35	876	1.84
445.10	2086	4.39
446.15	31	0.07
447.15	301	0.63
448.15	18079	38.06
449.10	15867	33.41
449.60	3539	7.45
450.20	2794	5.88
450.95	1336	2.81
452.35	97	0.20
454.20	255	0.54
455.35	1461	3.08
456.80	80	0.17
458.20	33	0.07
458.75	33	0.07
459.75	3	0.01
465.15	1855	3.91
466.15	12	0.03
467.15	1	0.00
468.75	121	0.25
470.75	1	0.00
472.05	416	0.88
473.50	114	0.24
476.45	38	0.08
477.95	5528	11.64
478.95	21	0.04
480.95	19	0.04
482.30	41	0.09
482.70	83	0.17
484.30	279	0.59
485.40	1723	3.63
488.35	3	0.01
489.85	409	0.86
491.00	673	1.42
491.55	32	0.07
492.55	13	0.03
494.20	530	1.12
494.70	67	0.14
495.85	34	0.07
497.35	215	0.45
498.35	4	0.01
499.45	31	0.07
500.45	6	0.01
501.40	1456	3.07
503.35	16	0.03
504.90	1659	3.49
506.30	2745	5.78
508.15	7	0.01
509.10	783	1.65
509.55	369	0.78
512.55	631	1.33
513.25	1369	2.88
513.90	80	0.17
514.65	4	0.01
515.40	45	0.09
516.45	60	0.13
518.45	13	0.03
519.40	3100	6.53
520.35	48	0.10
521.35	32	0.07
523.10	91	0.19
524.15	6	0.01
525.15	51	0.11
526.15	9	0.02
528.15	8	0.02
529.15	27	0.06
530.15	13	0.03
532.15	25	0.05
533.15	10	0.02
534.15	3	0.01
536.15	3	0.01
538.15	5	0.01
539.20	1493	3.14
540.00	919	1.93
540.90	3952	8.32
542.60	903	1.90
543.10	445	0.94
544.05	33	0.07
545.05	4	0.01
546.95	6	0.01
547.85	1582	3.33
549.90	77	0.16
550.85	2	0.00
552.85	9	0.02
554.30	316	0.67
557.10	34	0.07
557.50	50	0.11
558.70	40	0.08
559.30	1520	3.20
560.25	15	0.03
562.25	11	0.02
566.25	17	0.04
567.85	217	0.46
569.85	8	0.02
570.90	1839	3.87
572.85	33	0.07
573.85	16	0.03
578.35	69	0.15
581.45	47	0.10
584.45	11	0.02
589.10	82	0.17
592.25	420	0.88
592.70	832	1.75
593.50	993	2.09
594.20	1516	3.19
596.45	52	0.11
599.45	72	0.15
601.60	1469	3.09
602.65	15	0.03
605.30	815	1.72
606.95	41	0.09
608.15	735	1.55
608.65	27	0.06
609.90	86	0.18
611.50	28	0.06
612.10	454	0.96
612.95	28	0.06
613.80	350	0.74
617.40	31	0.07
618.45	1157	2.44
619.05	1112	2.34
619.95	1154	2.43
621.85	2	0.00
622.75	346	0.73
624.60	1964	4.13
626.45	44	0.09
629.30	56	0.12
630.75	72	0.15
633.30	1463	3.08
634.25	2	0.00
635.20	49	0.10
635.75	166	0.35
637.25	509	1.07
637.80	23	0.05
638.65	13	0.03
639.45	2016	4.24
641.95	933	1.96
644.30	42	0.09
646.10	37	0.08
647.05	12	0.03
648.05	2445	5.15
648.60	293	0.62
649.45	26	0.05
650.20	55	0.12
654.80	92	0.19
655.85	1	0.00
659.75	707	1.49
660.50	7107	14.96
661.40	6430	13.54
662.00	3318	6.99
662.60	5407	11.38
663.00	911	1.92
663.70	14	0.03
664.30	1022	2.15
666.80	248	0.52
668.75	179	0.38
669.60	43	0.09
670.00	97	0.20
671.05	42	0.09
673.05	38	0.08
674.05	1088	2.29
674.45	852	1.79
675.35	743	1.56
680.35	46	0.10
683.35	27	0.06
684.70	75	0.16
685.45	391	0.82
686.20	5338	11.24
686.85	867	1.83
687.40	506	1.07
688.50	27849	58.63
689.35	23663	49.82
690.35	4538	9.55
691.95	670	1.41
694.25	1982	4.17
695.50	905	1.91
696.45	16	0.03
698.00	2232	4.70
698.95	7	0.01
702.95	2	0.00
704.25	1593	3.35
706.25	2	0.00
708.65	120	0.25
710.65	41	0.09
711.65	12	0.03
712.65	4	0.01
713.55	249	0.52
714.30	6246	13.15
715.40	4633	9.75
716.30	2393	5.04
716.90	3073	6.47
717.95	1088	2.29
719.05	839	1.77
719.60	442	0.93
720.55	3	0.01
721.55	726	1.53
722.25	90	0.19
723.25	9	0.02
725.25	2	0.00
726.70	77	0.16
727.65	1	0.00
728.65	5	0.01
731.50	110	0.23
732.45	9	0.02
733.30	353	0.74
735.25	15	0.03
737.25	5	0.01
739.25	58	0.12
740.25	29	0.06
741.25	18	0.04
742.80	1938	4.08
743.85	435	0.92
744.85	5	0.01
746.55	330	0.69
749.55	33	0.07
750.55	10	0.02
751.55	17	0.04
752.45	489	1.03
753.45	6	0.01
755.50	3484	7.34
757.45	4	0.01
758.45	2	0.00
759.95	82	0.17
760.85	13	0.03
761.60	56	0.12
762.65	23	0.05
764.40	109	0.23
767.90	829	1.75
771.85	17	0.04
773.65	17	0.04
774.50	2501	5.27
775.15	751	1.58
776.15	6	0.01
778.15	37	0.08
779.45	576	1.21
780.85	49	0.10
781.85	8	0.02
783.85	7	0.01
785.85	4	0.01
787.40	904	1.90
788.05	543	1.14
788.50	658	1.39
789.20	1162	2.45
790.00	42	0.09
791.65	50	0.11
795.65	46	0.10
797.65	21	0.04
798.65	37	0.08
799.55	22	0.05
Event	2
